#ANTENNA_REF_FILE_V1			
			
#AntennaManufacturer:                   	SATIMO		
#AntennaType:                           	SD740		
#AntennaSerialNumber:                   	80		
			
#S11DataType:                           	Measured		
#S11MeasurementInstrumentation:         	Agilent PNA N5230A 		
#S11MeasurementInstrumentationReference: 			
#S11MeasurementDate:                    	2012-03-12		
			
#GainDataType:                          	Typical		
#GainMeasurementSystemType:             			
#GainMeasurementSystemReference:        			
#GainMeasurementDate:                   			
			
#EfficiencyDataType:                    	Typical		
#EfficiencyMeasurementSystemType:       			
#EfficiencyMeasurementSystemReference:  			
#EfficiencyMeasurementDate:             			
			
# Columns : 			
#			
# Frequency | 	Return Loss|	Efficiency |	   Gain    |
#   (Mhz)   |	   (dB)    |	   (dB)    |	   (dBi)   |
			
690	-14.19	-0.16	1.47
691	-14.35	-0.16	1.47
692	-14.51	-0.16	1.47
693	-14.68	-0.16	1.48
694	-14.85	-0.16	1.48
695	-15.02	-0.16	1.48
696	-15.19	-0.17	1.47
697	-15.36	-0.18	1.46
698	-15.53	-0.19	1.45
699	-15.70	-0.19	1.44
700	-15.88	-0.20	1.43
701	-16.06	-0.20	1.43
702	-16.23	-0.20	1.43
703	-16.41	-0.20	1.43
704	-16.60	-0.20	1.42
705	-16.79	-0.20	1.42
706	-16.97	-0.20	1.42
707	-17.17	-0.21	1.41
708	-17.37	-0.21	1.41
709	-17.58	-0.22	1.41
710	-17.79	-0.22	1.40
711	-18.01	-0.24	1.38
712	-18.24	-0.25	1.36
713	-18.47	-0.27	1.35
714	-18.70	-0.29	1.33
715	-18.96	-0.31	1.31
716	-19.21	-0.31	1.30
717	-19.47	-0.31	1.29
718	-19.75	-0.32	1.29
719	-20.03	-0.32	1.28
720	-20.33	-0.33	1.27
721	-20.62	-0.33	1.27
722	-20.94	-0.33	1.26
723	-21.26	-0.33	1.26
724	-21.59	-0.34	1.26
725	-21.95	-0.34	1.25
726	-22.30	-0.36	1.23
727	-22.68	-0.38	1.20
728	-23.05	-0.40	1.18
729	-23.44	-0.42	1.15
730	-23.85	-0.44	1.12
731	-24.27	-0.43	1.13
732	-24.70	-0.43	1.14
733	-25.15	-0.42	1.15
734	-25.62	-0.41	1.16
735	-26.08	-0.40	1.17
736	-26.59	-0.41	1.16
737	-27.10	-0.41	1.15
738	-27.62	-0.42	1.15
739	-28.14	-0.42	1.14
740	-28.69	-0.42	1.13
741	-29.24	-0.43	1.13
742	-29.77	-0.43	1.12
743	-30.31	-0.43	1.12
744	-30.80	-0.43	1.12
745	-31.23	-0.44	1.12
746	-31.61	-0.43	1.13
747	-31.87	-0.42	1.14
748	-32.03	-0.42	1.15
749	-32.08	-0.41	1.16
750	-31.97	-0.41	1.17
751	-31.79	-0.42	1.16
752	-31.49	-0.43	1.16
753	-31.08	-0.44	1.15
754	-30.68	-0.45	1.15
755	-30.20	-0.46	1.14
756	-29.72	-0.49	1.12
757	-29.24	-0.51	1.11
758	-28.77	-0.53	1.09
759	-28.31	-0.55	1.07
760	-27.85	-0.58	1.05
761	-27.40	-0.56	1.06
762	-27.00	-0.54	1.08
763	-26.58	-0.53	1.09
764	-26.20	-0.51	1.11
765	-25.83	-0.50	1.12
766	-25.46	-0.49	1.13
767	-25.12	-0.48	1.14
768	-24.81	-0.47	1.15
769	-24.49	-0.46	1.16
770	-24.20	-0.46	1.17
771	-23.91	-0.46	1.17
772	-23.63	-0.46	1.17
773	-23.37	-0.46	1.18
774	-23.11	-0.47	1.18
775	-22.86	-0.47	1.18
776	-22.63	-0.46	1.19
777	-22.40	-0.45	1.20
778	-22.18	-0.45	1.21
779	-21.97	-0.44	1.22
780	-21.76	-0.43	1.23
781	-21.56	-0.43	1.23
782	-21.37	-0.43	1.23
783	-21.17	-0.42	1.23
784	-20.98	-0.42	1.23
785	-20.80	-0.42	1.23
786	-20.61	-0.42	1.23
787	-20.44	-0.42	1.22
788	-20.27	-0.42	1.21
789	-20.10	-0.42	1.21
790	-19.94	-0.42	1.20
791	-19.78	-0.41	1.20
792	-19.63	-0.40	1.21
793	-19.48	-0.39	1.21
794	-19.34	-0.38	1.21
795	-19.20	-0.38	1.21
796	-19.06	-0.36	1.22
797	-18.94	-0.35	1.23
798	-18.80	-0.33	1.23
799	-18.68	-0.32	1.24
800	-18.57	-0.30	1.25
